Folder: phd-thesis/Data/TGA/ebs-nitroamide-2py

File: TF-Se-2-2018-01-15.tsv
:
  TF-Se-2-2018-01-15, 30.05.2005 07:42:59
:
       Index           t          Ts          Tr       Value
                     [s]        [°C]        [°C]        [mg]
           0           0     14.1308          25     6.45676
          33          33     13.8209          25     6.45623
          66          66     13.7356          25     6.45637
          99          99     13.6608          25     6.45614
         132         132     13.5807          25       6.456
         165         165     13.5684          25     6.45581
         198         198     13.5469          25     6.45571
         231         231      13.528          25     6.45554
         264         264     13.5222          25     6.45536
         297         297     13.5052          25     6.45468
         330         330     13.9317        27.5     6.45424
         363         363     14.2019       30.25     6.45388
         396         396     14.5866          33     6.45356
         429         429     15.0437       35.75     6.45338
         462         462     15.4558        38.5     6.45261
         495         495     15.8972       41.25     6.45247
         528         528     16.3477          44     6.45231
         561         561     16.8041       46.75     6.45138
         594         594     17.2331        49.5     6.45106
         627         627     17.6706       52.25     6.45078
         660         660     18.0964          55     6.45033
         693         693     18.5098       57.75     6.44982
         726         726     18.9428        60.5     6.44877
         759         759     19.3373       63.25     6.44802
         792         792     19.7168          66     6.44632
         825         825     20.1126       68.75     6.44428
         858         858     20.5091        71.5     6.44092
         891         891     20.8814       74.25     6.43706
         924         924     21.2395          77     6.43048
         957         957     21.5722       79.75     6.42092
         990         990     21.9648        82.5     6.40668
        1023        1023     22.3112       85.25     6.38484
        1056        1056     22.6478          88     6.35113
        1089        1089     23.0026       90.75     6.30134
        1122        1122     23.3274        93.5     6.23098
        1155        1155     23.6725       96.25     6.13654
        1188        1188      23.981          99     6.01934
        1221        1221     24.3059      101.75      5.8884
        1254        1254      24.589       104.5     5.76059
        1287        1287     24.8977      107.25     5.65325
        1320        1320     25.2038         110     5.57477
        1353        1353     25.4519      112.75     5.52345
        1386        1386     25.7534       115.5     5.49667
        1419        1419     26.0059      118.25     5.49106
        1452        1452     26.2742         121     5.48996
        1485        1485     26.5209      123.75      5.4893
        1518        1518     26.7716       126.5     5.48862
        1551        1551     27.0302      129.25     5.48764
        1584        1584     27.2529         132     5.48676
        1617        1617     27.4977      134.75     5.48597
        1650        1650     27.7266       137.5     5.48542
        1683        1683     27.9583      140.25     5.48438
        1716        1716     28.1759         143     5.48387
        1749        1749     28.3862      145.75     5.48314
        1782        1782     28.5855       148.5     5.48227
        1815        1815     28.7749      151.25     5.48193
        1848        1848     28.9832         154     5.48106
        1881        1881     29.1487      156.75     5.48004
        1914        1914     29.3408       159.5     5.47954
        1947        1947     29.5206      162.25     5.47892
        1980        1980     29.7144         165     5.47844
        2013        2013     29.8959      167.75      5.4778
        2046        2046     30.0899       170.5     5.47728
        2079        2079     30.2324      173.25     5.47602
        2112        2112      30.381         176     5.47518
        2145        2145     30.5536      178.75     5.47462
        2178        2178     30.6901       181.5     5.47386
        2211        2211      30.836      184.25      5.4728
        2244        2244      30.987         187     5.47211
        2277        2277     31.1186      189.75     5.47035
        2310        2310     31.2637       192.5     5.47006
        2343        2343     31.3711      195.25     5.46927
        2376        2376     31.5004         198     5.46846
        2409        2409     31.6163      200.75     5.46744
        2442        2442     31.7356       203.5     5.46675
        2475        2475     31.8613      206.25     5.46593
        2508        2508      31.979         209     5.46489
        2541        2541     32.0662      211.75     5.46398
        2574        2574     32.1683       214.5      5.4631
        2607        2607       32.26      217.25     5.46213
        2640        2640     32.3538         220     5.46127
        2673        2673     32.4572      222.75     5.46058
        2706        2706     32.5294       225.5      5.4592
        2739        2739     32.6082      228.25     5.45843
        2772        2772     32.6875         231     5.45744
        2805        2805     32.7807      233.75     5.45648
        2838        2838     32.8315       236.5     5.45537
        2871        2871     32.8999      239.25     5.45438
        2904        2904     32.9605         242     5.45327
        2937        2937     33.0464      244.75      5.4523
        2970        2970     33.0829       247.5     5.45125
        3003        3003     33.1513      250.25     5.44995
        3036        3036     33.2006         253     5.44878
        3069        3069     33.2508      255.75     5.44755
        3102        3102     33.2937       258.5     5.44614
        3135        3135     33.3348      261.25      5.4448
        3168        3168     33.3904         264     5.44326
        3201        3201     33.4442      266.75     5.44134
        3234        3234     33.5009       269.5     5.43973
        3267        3267     33.5348      272.25     5.43745
        3300        3300     33.5713         275     5.43526
        3333        3333     33.6071      277.75     5.43279
        3366        3366     33.6546       280.5     5.42998
        3399        3399     33.7149      283.25     5.42624
        3432        3432     33.7503         286     5.42229
        3465        3465     33.7946      288.75     5.41778
        3498        3498     33.8293       291.5     5.41341
        3531        3531     33.8778      294.25     5.40812
        3564        3564     33.9016         297     5.40249
        3597        3597     33.9204      299.75      5.3961
        3630        3630     33.9392       302.5     5.38959
        3663        3663     33.9753      305.25     5.38198
        3696        3696     33.9987         308     5.37425
        3729        3729     34.0114      310.75     5.36538
        3762        3762     34.0635       313.5     5.35511
        3795        3795     34.0869      316.25     5.34448
        3828        3828      34.115         319     5.33156
        3861        3861      34.126      321.75     5.31703
        3894        3894     34.1663       324.5     5.29964
        3927        3927     34.1806      327.25      5.2787
        3960        3960     34.2113         330     5.25314
        3993        3993     34.2407      332.75     5.22149
        4026        4026     34.2575       335.5     5.17983
        4059        4059     34.2972      338.25     5.12052
        4092        4092     34.3285         341     5.02302
        4125        4125     34.3786      343.75     4.78263
        4158        4158     34.4353       346.5     4.00168
        4191        4191     34.4242      349.25     3.90149
        4224        4224     34.4093         352     3.85836
        4257        4257     34.4272      354.75     3.82701
        4290        4290     34.4491       357.5     3.80122
        4323        4323     34.4425      360.25      3.7774
        4356        4356     34.4829         363     3.75426
        4389        4389     34.4878      365.75     3.73102
        4422        4422     34.5036       368.5     3.70701
        4455        4455     34.5428      371.25     3.68232
        4488        4488     34.5565         374     3.65727
        4521        4521     34.5514      376.75     3.63182
        4554        4554     34.5769       379.5     3.60621
        4587        4587     34.5927      382.25     3.58108
        4620        4620     34.6037         385     3.55667
        4653        4653     34.6023      387.75     3.53308
        4686        4686     34.6452       390.5     3.51031
        4719        4719      34.645      393.25     3.48916
        4752        4752     34.6594         396     3.46928
        4785        4785     34.6734      398.75     3.45043
        4818        4818      34.687       401.5     3.43322
        4851        4851     34.7061      404.25     3.41683
        4884        4884     34.7184         407     3.40149
        4917        4917     34.7522      409.75     3.38691
        4950        4950      34.773       412.5     3.37278
        4983        4983     34.9106      415.25     3.35944
        5016        5016     34.9666         418       3.346
        5049        5049     35.0227      420.75     3.33245
        5082        5082      35.056       423.5     3.31872
        5115        5115     35.0808      426.25     3.30531
        5148        5148     35.1213         429     3.29144
        5181        5181      35.155      431.75     3.27725
        5214        5214     35.2135       434.5     3.26251
        5247        5247     35.2913      437.25     3.24826
        5280        5280     35.3277         440     3.23371
        5313        5313     35.3578      442.75     3.21914
        5346        5346     35.3805       445.5     3.20428
        5379        5379     35.3899      448.25     3.18934
        5390        5390     35.3803     449.167     3.18455
:
  Step	-15.0446 %
   	-0.9714 mg
  Left Limit	17.53 °C
  Right Limit	29.38 °C

  Step	-24.7253 %
   	-1.5965 mg
  Left Limit	33.20 °C
  Right Limit	34.43 °C

:
  TF-Se-2-2018-01-15, 30.05.2005 07:42:59
  TF-Se-2-2018-01-15, 6.4568 mg

:
  TF-Se-2-2018-01-15, 6.4568 mg
:
  tim450-3